acc_x, acc_y, angular_z, stamp, 
0.025814414024353027-0.006532847881317139-3.036843049056648e-101791406100227297787
-0.00102365016937255860.007983267307281494-9.985246191900662e-071791406100257150520
-0.02057778835296631-0.007830023765563965-9.719045948639856e-071791406100287817689
-0.005826473236083984-0.0057252645492553715.243432443124771e-121791406100320614364
-0.016387760639190674-0.00376778841018676764.1376232177182584e-111791406100348013977
0.0036118626594543457-3.0934810638427734e-052.4400843714501985e-111791406100377189604
0.0037903785705566406-0.0248932242393493651.62519863338641e-111791406100407246913
0.0238246917724609380.01139158010482788-3.312440130883436e-111791406100437371127
0.005896627902984619-0.015274524688720703-7.112134683758732e-111791406100467435615
-0.00309914350509643550.002913832664489746-8.061215054491954e-111791406100497271662
-0.0155961513519287110.008594334125518799-1.0356091444396451e-101791406100527888681
-0.03693950176239014-0.014523744583129883-1.6297724574982446e-101791406100560321001
0.008266985416412354-0.0107781887054443361.1030188557307368e-061791406100587331459
0.008366644382476807-0.0178581476211547859.965448670436545e-071791406100617225343
-0.0078462362289428710.0038707852363586426-3.798986682763429e-101791406100647293978
-0.007868051528930664-0.0121378302574157719.952124746312233e-071791406100677228805
0.0101216435432434080.0041232705116271979.926989903702997e-071791406100707238900
-0.0060704350471496580.009528934955596924-3.439624729124571e-101791406100737290017
0.01561748981475830.0237771272659301769.642722987573247e-071791406100768185600
-0.00940471887588501-0.0031865239143371589.29885384754961e-071791406100800223724
-0.009255886077880860.020115315914154053-4.2435327414610853e-101791406100827364315
0.0250704884529113770.023551106452941895-4.1035981311283207e-101791406100856623431
0.0142759084701538090.01790374517440796-1.8461312955505878e-101791406100880719439
-0.00199151039123535160.006728768348693848-2.416221668895513e-101791406100908211029
0.005094468593597412-0.03302818536758423-1.1827400755911543e-101791406100937365003
-0.018215775489807130.0028179287910461426-7.93279305772216e-111791406100967349181
0.0087856650352478030.011654734611511239.930351521208757e-071791406100997358841
0.0140486359596252440.007878720760345459-2.4734063267024892e-111791406101027411532
0.0102309584617614750.020374238491058351.1520054797989397e-121791406101057417902
-0.0097975134849548340.00225561857223510741.7373784854644683e-111791406101088100673
-0.0152432322502136230.0145890116691589365.813232648706001e-121791406101119880040
0.0279249548912048340.0159951448440551762.818604040274728e-111791406101147445583
0.00263422727584838870.022758722305297851.8348773993505537e-111791406101177507856
0.0023836493492126465-0.011737346649169922-4.982966060790432e-111791406101207453217
-0.006700694561004639-0.020930051803588867-9.927592554854904e-071791406101237476533
-0.0013660192489624023-0.01569133996963501-1.4824915676160252e-101791406101267459237
-0.0052668452262878420.0021530985832214355-2.394154468264278e-101791406101297518338
0.0033512115478515625-0.021293938159942627-9.479570643963566e-071791406101328969437
0.0084416270256042480.003845036029815674-9.641171147097268e-071791406101359896858
0.01901400089263916-0.010505437850952148-1.0790073308304591e-061791406101387532983
0.02053469419479370.012776196002960205-9.925090114987237e-071791406101417579336
0.0023458600044250490.016277730464935303-9.943842166454417e-071791406101447571643
-0.0014390945434570312-0.026961982250213623-9.94964430890198e-071791406101477549063
-0.017648458480834960.005383551120758057-9.943086104719268e-071791406101507546459
0.0129449963569641110.017750084400177002-1.0258657915987423e-061791406101536620037
0.014611244201660156-0.007625877857208252-9.524674559045845e-071791406101567936553
-0.0017214417457580566-0.022104263305664062-9.336307948626023e-071791406101599887185
-0.007117152214050293-0.004059493541717529-1.1153552036931277e-061791406101626630988
-0.0016112327575683594-0.00026279687881469727-9.947201489214844e-071791406101656613309
0.003932595252990723-0.009074032306671143-5.140614118101651e-101791406101686633874
0.011144518852233887-0.028622031211853027-3.994545366276061e-101791406101717673103
0.016568481922149658-0.0247880220413208-3.1024645398020145e-101791406101746639637
-0.015704452991485596-0.006438612937927246-9.595964406686382e-071791406101777701858
-0.0201929807662963870.0242325663566589360.00059414465576866961791406101808048489
0.03134512901306152-0.0039699077606201170.000454070824540806071791406101840343368
0.86305803060531620.252708673477172850.028524747638937551791406101867779480
1.82152116298675540.050172686576843260.200958051571400681791406101897725443
0.70708662271499630.214295446872711180.239515098596606941791406101927682584
0.88439846038818360.089121937751770020.30091534044300421791406101957755710
-0.27156507968902590.150817573070526120.32903081149172081791406101987691335
-0.434190213680267330.079121053218841550.31910908744323731791406102017777337
-0.14227944612503052-0.0225672721862792970.29637600492221291791406102048094184
-0.3950914144515991-0.23804289102554320.27789010240001651791406102080190992
-0.199042022228240970.171132326126098630.3216104221341151791406102107819834
-0.127502501010894780.199384510517120360.252001813210473661791406102137811923
0.08860492706298828-0.105125188827514650.244817738820491181791406102168467300
0.13467669486999512-0.00323295593261718750.35518507723005281791406102197791315
0.048093795776367190.110609292984008790.36672740763395421791406102228475496
0.13385874032974243-0.078589081764221190.31259786752099021791406102258536893
0.011118888854980469-0.044633030891418460.291256475978424361791406102288531640
0.011497497558593750.095943748950958250.26918964914766841791406102320033540
-0.07125347852706909-0.079912602901458740.32179874308324251791406102347834924
0.130358219146728520.177747547626495360.30853402810065131791406102378561539
-0.13403749465942383-0.019538104534149170.29770686037205611791406102408550877
0.007452249526977539-0.101329386234283450.29124281176714761791406102438584688
-0.142871618270874020.090896010398864750.31297981125467371791406102468559108
-0.052320539951324460.0590500235557556150.31154620579097111791406102498585729
-0.14479047060012817-0.063831567764282230.32233493325561841791406102527640581
-0.135388672351837160.0176886320114135740.279348283501444861791406102560271234
0.22808843851089478-0.162312030792236330.320053080747153051791406102588098454
0.0129683613777160640.240609705448150630.2905022048439091791406102618594789
-0.045327067375183105-0.069419145584106450.295076327483914661791406102648512665
-0.18326026201248170.00313502550125122070.264967910952503941791406102670028495
0.1471005678176880.18626183271408080.31274886320276281791406102708532628
-0.10601484775543213-0.035448193550109860.312151949264764641791406102738569403
0.13449764251708984-0.09241038560867310.30987223504700691791406102767622776
-0.192375421524047850.206250667572021480.275612426233999341791406102800502002
0.07683026790618896-0.079244077205657960.303751818580340671791406102830070518
-0.06911587715148926-0.00124293565750122070.30832618773178651791406102858579155
0.130424082279205320.123024880886077880.30971006580946941791406102888559439
0.03380227088928223-0.14799767732620240.30376075977433941791406102918600005
-0.038002789020538330.00127941370010375980.3040784331197181791406102948593068
-0.0237351059913635250.094307601451873780.29619086021864791791406102978661742
0.0258414745330810550.0075702071189880370.2663382780096061791406103008705978
-0.15305316448211670.080082058906555180.27513751421485581791406103040245681
0.03454887866973877-0.087757587432861330.30179553515000891791406103070199896
0.0031512975692749023-0.206028103828430180.31211519275870471791406103098645170
0.18675231933593750.218997657299041750.29960464090006011791406103128650442
0.05325210094451904-0.00411522388458251950.26271294236215771791406103150093157
-0.035151004791259766-0.0028111338615417480.28009275730932131791406103178666244
0.16397023200988770.2104380726814270.290936070172040151791406103208666696
-0.00227165222167968750.0030146837234497070.308396262083904361791406103237628730
-0.11194288730621338-0.18811035156250.30976014654294971791406103267613328
0.0110867619514465330.188025534152984620.30311637973074171791406103298644917
0.1172560453414917-0.0538908839225769040.294459864083427341791406103328667401
-0.1990869641304016-0.0258651375770568850.28906139823998611791406103360164832
0.05577135086059570.16766333580017090.31029307836690211791406103390204818
-0.17102080583572388-0.241896986961364750.323016038568619271791406103418736775
0.3445109724998474-0.019105792045593260.325086909951005531791406103447631243
0.26518124341964720.196477532386779790.2658411036666471791406103470823906
0.004780232906341553-0.12611120939254760.31628702722299191791406103508658575
-0.214455127716064450.142897188663482670.296049251531651071791406103538816468
0.016802012920379640.0140807032585144040.291191043871841251791406103569090001
-0.09417623281478882-0.156784474849700930.283179180146921671791406103600019110
0.257776558399200440.132830619812011720.281807054747225671791406103630740422
0.04848712682723999-0.116745054721832280.29962218259530841791406103668650924
-0.198752462863922120.14158338308334350.281769807465441671791406103698843618
0.0282577872276306150.079416155815124510.28052493694101721791406103729077468
-0.11077964305877686-0.27008372545242310.27292319891958781791406103760534867
0.045987427234649660.13050282001495360.32188749093155321791406103789815204
0.172688424587249760.149937391281127930.30891648080608011791406103818701254
0.08297866582870483-0.20465260744094850.275753792324162141791406103848680725
-0.085114419460296630.16056364774703980.306553115972677871791406103878708447
-0.122062206268310550.044636011123657230.301353193582621251791406103908729302
-0.08905118703842163-0.123860359191894530.28685573195488711791406103938784252
0.108215868473052980.03972589969635010.311408598756669431791406103968832590
0.263321995735168460.149655699729919430.281903990602939251791406104000328129
-0.125556707382202150.062678337097167970.28943369425603551791406104030896495
-0.156301438808441160.067567944526672360.342798164274209061791406104058883399
0.184022784233093260.0617660880088806150.31894006072021981791406104088995116
0.2674744129180908-0.145772337913513180.28735598631255741791406104111207165
0.19546937942504883-0.083489716053009030.32728975209213821791406104149139098
-0.197994828224182130.0278852581977844240.2893923438518541791406104178747630
0.120079815387725830.216539502143859860.28863019542093081791406104208777095
-0.163388609886169430.0254519581794738770.284655213403583851791406104239643439
0.12805354595184326-0.19091480970382690.285220320575578671791406104271319659
0.029323935508728027-0.017778575420379640.32818020588141341791406104308795851
0.0536017417907714840.064968407154083250.27730253653451791791406104338816993
-0.271272599697113040.16854542493820190.287426879916145961791406104369169839
0.032353281974792480.14084422588348390.30181313763058041791406104400776678
0.09626984596252441-0.059352397918701170.30344294260296561791406104432492600
0.115166008472442630.093366920948028560.353188376895680061791406104468955643
-0.11529803276062012-0.097698986530303960.30102505695044461791406104498904026
0.002523779869079590.023177087306976320.273690575624695061791406104528867505
-0.244510650634765620.268270969390869140.28818285281291071791406104560376575
0.2892271876335144-0.17595857381820680.3062769626021451791406104590643901
-0.12136161327362060.124496519565582280.313014302219050741791406104628959180
0.16678494215011597-0.107109606266021730.27582435454061931791406104658989699
-0.09561508893966675-0.066593825817108150.265535873145563651791406104689207886
-0.1002531647682190.225099146366119380.29629165290752511791406104720467438
0.154753029346466060.061710715293884280.30078382142811931791406104751448559
0.07783997058868408-0.0477776527404785160.327907614029952051791406104779166799
-0.03310590982437134-0.100022673606872560.298876932715933131791406104809077206
0.192027866840362550.051999390125274660.26024848705284081791406104838914575
-0.232326626777648930.226265132427215580.255344456129071641791406104869076519
-0.004025697708129883-0.0123171806335449220.271415010616954941791406104899294323
-0.1381797194480896-0.154947996139526370.30913151119974531791406104928950046
0.178104341030120850.061384201049804690.30227053952712241791406104960399860
0.1838807463645935-0.146267414093017580.290843100586198941791406104992117319
-0.08571940660476685-0.159863710403442380.34323924977078361791406105019001926
-0.0522315502166748050.44807142019271850.29326698173786941791406105049062376
-0.31628239154815674-0.100064396858215330.25228678926176971791406105072134600
0.04602789878845215-0.191999971866607670.328257073377182241791406105108998240
0.035713195800781250.12198287248611450.32130996732336841791406105139016847
0.21984952688217163-0.064473450183868410.311846785937978651791406105169066682
-0.21611291170120240.0622091293334960940.2752020147322511791406105200429999
0.0433408617973327640.035878717899322510.277137937787923171791406105231664574
-0.08424180746078491-0.13611614704132080.326055994043452041791406105269055364
-0.00207239389419555660.190778791904449460.32093153674837131791406105299031654
0.1578173041343689-0.129726648330688480.317443040452170531791406105329042949
-0.1106157898902893-0.0101009607315063480.26992556757311851791406105360716593
-0.0290394425392150880.16188293695449830.26967032321628971791406105392119204
-0.15300190448760986-0.095782518386840820.31941642064920631791406105429330343
-0.240512132644653320.101646006107330320.317103825011772371791406105459133140
0.11160808801651001-0.064452230930328370.29985251972736711791406105489110014
0.06791496276855469-0.19646537303924560.272345975857649861791406105519615757
0.019246757030487060.147480428218841550.276066379056501551791406105551686215
-0.38281655311584470.107898831367492680.320441791273552771791406105579269447
0.19359970092773438-0.0165780782699584960.30801134979558521791406105609080483
-0.15630882978439330.153860747814178470.28321014621987341791406105631666517
0.38196080923080444-0.103006124496459960.318912740697527231791406105669075599
-0.10902935266494751-0.00681358575820922850.29523572590193771791406105699077298
-0.06849354505538940.13289171457290650.300958748245225341791406105729287800
-0.120541572570800780.0172052383422851560.28827021599908651791406105760483122
-0.07476156949996948-0.0330459475517272950.291818384997500351791406105792397405
0.12581956386566162-0.126576602458953860.34797418953836851791406105819310925
0.04948389530181885-0.0527985692024230960.303832540869705351791406105849350273
0.009283542633056640.07423692941665650.258427381831852761791406105872546262
0.0380973815917968750.020657420158386230.31936540141742761791406105909149443
0.07382470369338989-0.091729819774627690.29901898733495681791406105939120724
0.027569532394409180.131189823150634770.310999457450043371791406105969142274
0.14272421598434448-0.028109669685363770.30103370146369761791406105999618333
0.032628536224365234-0.038121104240417480.258876858176039561791406106032803837
-0.212729632854461670.12373423576354980.314996497543316771791406106069145329
0.16959333419799805-0.0062341094017028810.291649656327031791406106099159868
-0.080828130245208740.125682890415191650.32053977539444461791406106129209523
-0.09223920106887817-0.152505695819854740.310582338755655661791406106160529961
-0.07354587316513062-0.061541020870208740.29190568431422381791406106191691315
0.16682189702987670.125676035881042480.32611240024706021791406106229424115
0.1691492795944214-0.04276674985885620.30854569173761571791406106259361581
-0.09494405984878540.085948467254638670.315232790933098531791406106289256056
0.1180843710899353-0.062059402465820310.289366974653214761791406106321141045
-0.1493011713027954-0.118159413337707520.278900428077861861791406106352205564
-0.0160363912582397460.25458568334579470.32387985059142741791406106389250357
0.08819949626922607-0.063806772232055660.28770490795367671791406106419444647
-0.23088395595550537-0.114767789840698240.292253930350084571791406106449502549
-0.0279051661491394040.104956388473510740.286798511855320571791406106480503282
0.173101007938385-0.101663291454315190.265798452122186831791406106511686971
-0.13959980010986328-0.050465703010559080.31183961830503791791406106539273007
0.050068914890289310.116025686264038090.28949800494014231791406106569596738
-0.16232573986053467-0.0112301707267761230.308681124678410361791406106599316425
-0.0024171471595764160.085743904113769530.302768400214893931791406106629316647
-0.044359028339385986-0.130531489849090580.288820866030496171791406106659380615
0.1441670060157776-0.126582622528076170.29682203123131641791406106689382225
-0.103719890117645260.343030989170074460.2846010245452491791406106721150597
-0.1653783917427063-0.124917864799499510.272881850205795751791406106752937638
-0.018417298793792725-0.193312942981719970.330109147700905161791406106779977731
-0.109959900379180910.092865169048309330.31710411421370421791406106810083234
0.20377665758132935-0.045715034008026120.326347955288738941791406106839532469
-0.075293481349945070.0544466376304626460.311173123612803141791406106869665266
-0.1893938183784485-0.0064758658409118650.303284296557694731791406106899736929
0.1355123519897461-0.0228518843650817870.308577083488983331791406106928632739
0.0077742338180541990.282076239585876460.2828330295664211791406106960766221
0.04098999500274658-0.150096714496612550.28884876410117511791406106992586069
0.06222951412200928-0.157392859458923340.36140081637461511791406107017625813
0.0624473094940185550.204435706138610840.274498121539923371791406107049549659
0.090228438377380370.00688171386718750.2727211260359831791406107079490699
-0.09413760900497437-0.0490243434906005860.285807486173446871791406107109517336
-0.09134644269943237-0.0080206394195556640.31342258830769611791406107139533604
0.23098033666610718-0.00417488813400268550.29574396699237741791406107169525218
-0.124161958694458010.121650457382202150.293310697137258271791406107200710041
0.02851247787475586-0.080835103988647460.29765981603507251791406107232221688
0.007268846035003662-0.0160399079322814940.305708038711569041791406107259565139
-0.226464331150054930.0228794217109680180.30186102073569081791406107288524718
0.0209251642227172850.0012471079826354980.28488235660903321791406107318536732
0.005052447319030762-0.108160555362701420.280815747473761651791406107349589567
0.123984992504119870.13145083189010620.30531921648648171791406107379564965
0.054708838462829590.0310752391815185550.29727547416792711791406107409651572
-0.0996125340461731-0.0092135667800903320.29148780010412641791406107440722081
-0.110262572765350340.162353456020355220.30130156568362451791406107472721670
0.07002508640289307-0.063586831092834470.35167871495075371791406107508627843
0.073018789291381840.0228276252746582030.30637220243967031791406107538604821
-0.088762462139129640.054142713546752930.278746591286160641791406107568626738
-0.046645820140838620.080504834651947020.243404829152744561791406107601560995
0.035245358943939210.134543657302856450.29462190307881411791406107632238797
-0.20248079299926758-0.12523084878921510.32383936772097591791406107659731393
0.19133228063583374-0.102419018745422360.29353408007309111791406107689692680
-0.0301603674888610840.212163686752319340.31167781871803981791406107719690958
0.21626096963882446-0.045406937599182130.3002138279621551791406107749732632
0.0076467990875244140.280210137367248540.27644472985799171791406107779734542
-0.113287508487701420.0073329210281372070.314763545529673841791406107809758779
-0.01624077558517456-0.199732184410095210.29846258418404961791406107840744904
-0.120976388454437260.0120157003402709960.29528913796114431791406107872190898
0.051076233386993410.101487636566162110.3330269992377171791406107899928889
0.13724511861801147-0.0286295413970947270.294798567064299471791406107929776700
-0.068608283996582030.135174989700317380.31529993175226411791406107959801288
-0.03115612268447876-0.0128524899482727050.31353179884622171791406107989824840
0.19195175170898438-0.163993418216705320.30914048828915181791406108019826382
-0.146667838096618650.115005195140838620.32986483267900021791406108049802248
0.014236688613891602-0.00223547220230102540.295502828503066141791406108080250226
-0.06932467222213745-0.037329494953155520.269737666374514961791406108112997170
-0.043780088424682620.176742494106292720.33301966528405651791406108139917073
0.06766903400421143-0.067925393581390380.28442001752108831791406108169827310
-0.14160895347595215-0.039251685142517090.29087335712195021791406108199843096
0.15012156963348390.04241919517517090.29035457606244231791406108229844374
-0.06325054168701172-0.077187597751617430.283515522879968451791406108259882511
-0.075746476650238040.118248760700225830.296463557171978141791406108289961821
0.138046145439147950.0238702297210693360.28446813604838471791406108320596684
-0.22173893451690674-0.17550706863403320.288927309450106641791406108352273802
0.158372044563293460.122458994388580320.328810395136775571791406108380009595
-0.1859307885169983-0.111729323863983150.27651326630792361791406108409947798
0.1380089521408081-0.0537429451942443850.271277457032664541791406108439969253
-0.30079704523086550.355425059795379640.30145083693825141791406108469976865
0.1350809931755066-0.197751522064208980.311808632997360671791406108499977471
-0.07992935180664062-0.29610472917556760.29922261257536171791406108529993052
0.116748213768005370.166789531707763670.288826854182345661791406108560724149
0.25861102342605590.036247670650482180.267415553194999161791406108592295259
-0.2529437541961670.008023798465728760.30967432508911171791406108620060392
-0.0121319890022277830.091882109642028810.30801260740848751791406108650033634
-0.19556254148483276-0.0511888861656188960.30891253024059961791406108680072498
0.032642483711242676-0.0131667256355285640.30479815850895061791406108710046242
-0.11557477712631226-0.134862661361694340.296070673635761951791406108740094414
0.14445710182189941-0.059830784797668460.29033713735248511791406108770077991
-0.14846730232238770.353216409683227540.28613427873158951791406108800327845
0.1166532039642334-0.091958761215209960.26166228399824371791406108832726974
-0.05218851566314697-0.122288584709167480.330381640205805351791406108860192938
-0.0162435770034790040.072538614273071290.32297798061719531791406108890215225
-0.17603421211242676-0.024856448173522950.292297041041176151791406108920214955
-0.105447232723236080.16155666112899780.28987229569478521791406108950427097
-0.059991896152496340.044067680835723880.30131217484008991791406108980286735
-0.21069926023483276-0.12722367048263550.29944210351829541791406109010316172
-0.0131298899650573730.0073031783103942870.311559848800759261791406109041009848
0.06299012899398804-0.03210788965225220.284351638295475941791406109072799990
-0.06387311220169067-0.025188267230987550.314041818101727651791406109100228491
-0.07929676771163940.127332806587219240.300962401706209971791406109130159077
-0.132706046104431150.0628855824470520.30387759259543751791406109160214193
0.14529454708099365-0.0581435561180114750.31097780644640761791406109190205555
-0.2228451371192932-0.0593237876892089840.30054479845139131791406109220387935
0.2005544900894165-0.107413232326507570.283208438161857531791406109250257546
-0.113142788410186770.092518985271453860.27632777542604481791406109281080955
-0.172004222869873050.057833433151245120.29319093165278061791406109311722498
-0.10076916217803955-0.119815945625305180.31341468750416531791406109340339606
0.06275260448455810.081366240978240970.304557308314213461791406109370250581
0.09485012292861938-0.0258529782295227050.31077852844819411791406109400249331
-0.10294198989868164-0.031308591365814210.283629416689037241791406109430412174
0.0489777922630310060.172730088233947750.28707908874283411791406109460305949
-0.24244213104248047-0.10393053293228150.3045973417243651791406109490322337
0.11803078651428223-0.067914307117462160.28625377729104451791406109520781711
-0.148444652557373050.103017866611480710.29338603090899621791406109552377775
0.18529391288757324-0.064404368400573730.307505003793656641791406109582417061
-0.055162310600280760.056448698043823240.32622159470521431791406109620394147
-0.085236728191375730.064835250377655030.324696639814628431791406109650400449
0.13925457000732422-0.08675009012222290.302159686714834451791406109680428729
-0.03750997781753540.077938199043273930.29074939838804211791406109712893564
-0.013164520263671875-0.028540253639221190.322378897055679351791406109742459878
0.037397027015686035-0.102198421955108640.316889597742202541791406109770378395
-0.168733179569244380.20698088407516480.296034327491996151791406109800432902
-0.074728727340698240.057436168193817140.26340587768788381791406109822506464
-0.27626746892929077-0.0577638745307922360.30924111344055251791406109860533468
0.131390392780303960.0121315717697143550.308969020848827941791406109890548106
-0.05220407247543335-0.11326551437377930.301758791137400951791406109920578182
0.104195773601531980.025845289230346680.284019016890932841791406109952744346
-0.176376402378082280.211032569408416750.28996762202518761791406109982690330
0.07127493619918823-0.13945537805557250.312578297737917451791406110020786967
0.13757395744323730.320085942745208740.306313415384252441791406110050473196
-0.11419892311096191-0.187124252319335940.282961422384644451791406110080573597
0.1920100450515747-0.150939941406250.267533483556897661791406110112417365
-0.131351947784423830.38728088140487670.28445322586054711791406110142586066
0.013832330703735352-0.0129938721656799320.309077034090015971791406110170557572
-0.18687772750854492-0.100239515304565430.297341690255169041791406110200566407
0.165782928466796880.193212807178497310.277450512148707531791406110222870610
0.17112749814987183-0.12621003389358520.33329505945614481791406110260725737
0.111825942993164060.1063314676284790.2991070107251771791406110290592664
0.013574302196502686-0.0091897845268249510.282215764069917161791406110321171421
-0.018231451511383057-0.0109006762504577640.260548326603305461791406110353042435
-0.113703191280364990.15336924791336060.28883533833337311791406110383732637
0.05454742908477783-0.0510206818580627440.32436610178683821791406110420661389
0.10181349515914917-0.070038199424743650.32296677566381981791406110449639695
0.140304148197174070.117338478565216060.28610328047463731791406110480826889
-0.170386731624603270.016150891780853270.25654301982547531791406110512947523
-0.208536386489868160.021165251731872560.29791769992129511791406110543757329
-0.21594828367233276-0.062806487083435060.334418879181530071791406110580927896
0.12534475326538086-0.0311629176139831540.295315924680921791406110610692029
0.203144013881683350.148127198219299320.300331970384540351791406110640188660
-0.08025020360946655-0.0087623596191406250.254965411431463951791406110672842388
-0.05982452630996704-0.059380888938903810.291390444522736551791406110703574893
-0.13941615819931030.00381201505661010740.35506757108213891791406110729728161
0.024900138378143310.035043478012084960.293834981347165961791406110760764214
0.15064126253128052-0.0064558386802673340.314648331558237351791406110790782541
-0.0118870735168457030.0572837591171264650.305860945179370461791406110820810266
0.0368705987930297850.056470870971679690.306803260757262051791406110850761139
-0.32682168483734130.21317958831787110.297219366565671941791406110880837539
0.14380723237991333-0.234534978866577150.272275949150701141791406110912412146
-0.2814822196960449-0.19918727874755860.284633084941857631791406110943368236
0.2905501723289490.236922323703765870.312578749509157371791406110971009913
-0.170036554336547850.066873490810394290.26815488469170131791406111000948886
0.1902294158935547-0.0544508099555969240.285586629893052341791406111030918107
-0.2367457151412964-0.10640704631805420.309569263869631131791406111061171328
0.12089121341705322-0.102246463298797610.302179593757887941791406111091210602
0.0143254995346069340.161845028400421140.296926710603323151791406111121119072
-0.05705207586288452-0.08246284723281860.292836706435821441791406111152427990
-0.100576639175415040.047298192977905270.272792094703371731791406111183477713
0.087284803390502930.081771254539489750.312779127814807541791406111220952287
-0.20202261209487915-0.138629615306854250.293995427655430351791406111251102620
0.1635684370994568-0.064386010169982910.311364980798346741791406111280943652
-0.030748009681701660.157561600208282470.292947064929420741791406111312896351
0.15281879901885986-0.035883784294128420.283318883820037061791406111344140647
-0.049196124076843260.171792507171630860.34332521411835841791406111381217112
-0.04533529281616211-0.02507406473159790.316595938428126831791406111411032916
0.014452993869781494-0.146370708942413330.30304046774923911791406111441217208
0.033461749553680420.14385235309600830.29574200690951891791406111472415531
0.108653366565704350.0279679894447326660.26670401272672351791406111503993746
0.0527931451797485350.137658655643463130.30680290344966041791406111541051783
0.06867301464080810.066416084766387940.297559733190511271791406111571056525
-0.07173490524291992-0.237655758857727050.310352551693577171791406111601043674
-0.146109044551849370.164127588272094730.289038009401242251791406111633338077
0.308848917484283450.0321419239044189450.284006053803215251791406111664567120
-0.32766675949096680.174560427665710450.329220230132092061791406111701109876
0.0559166669845581050.0103486776351928710.28683327009764481791406111731140201
-0.141696035861969-0.228808581829071040.29113787640328581791406111761148424
-0.0153940320014953610.15385997295379640.29296869383276811791406111792477159
-0.108445465564727780.115363836288452150.27706389777967551791406111824914756
-0.0246126055717468260.109732508659362790.31160896230131891791406111861109519
-0.099797725677490230.156562745571136470.298561705832614041791406111891156981
0.019107401371002197-0.147299468517303470.31147516285304391791406111921207449
-0.196918427944183350.0049960613250732420.300207830157152361791406111952911495
0.0129039883613586430.054674923419952390.298636494212514651791406111984922052
0.07451862096786499-0.041944980621337890.319248981450821031791406112012104103
-0.13876485824584960.111973285675048830.2873924787341381791406112041221745
-0.0696488618850708-0.0209018588066101070.286657760379756541791406112071326409
0.05194324254989624-0.103872597217559810.30070457351097641791406112101230657
0.0243759751319885250.152810633182525630.30811872598208511791406112131297856
0.02121412754058838-0.0120602846145629880.286489930813943971791406112161270700
0.16044586896896362-0.163238227367401120.26713479402492111791406112192756393
-0.12854099273681640.216728687286376950.279594670542201051791406112224479540
-0.101030409336090090.033345103263854980.32031620076289721791406112261265930
0.176063001155853270.030789911746978760.300819960633895161791406112291307703
-0.02789705991744995-0.115790426731109620.28512186088530171791406112321330362
-0.052863895893096924-0.074359357357025150.261042757311552351791406112352452205
-0.087992310523986820.237811923027038570.274828920242702671791406112384780930
-0.13823622465133667-0.053911626338958740.35095344835330451791406112411467612
0.14827555418014526-0.103253185749053960.315816468104113571791406112441324534
0.158637702465057370.091640114784240720.321235778330608571791406112471325680
-0.0163440108299255370.0070516467094421390.3036648263488431791406112501324086
-0.1715489625930786-0.0029805302619934080.299642211642843441791406112531350843
-0.14319694042205810.035150468349456790.299979335569847741791406112561383405
0.15612459182739258-0.037522792816162110.29011411560793441791406112592960651
-0.138914406299591060.086948573589324950.29259260732592631791406112624860662
0.047138512134552-0.046884298324584960.336371580252810941791406112651562693
0.08795297145843506-0.049493968486785890.28056973176945681791406112681408923
-0.044542491436004640.229058802127838130.28700781232323821791406112711459110
-0.04440784454345703-0.092905819416046140.296915507860891051791406112741419905
-0.17566299438476562-0.152680754661560060.29993254857986231791406112771453789
0.099970638751983640.20048910379409790.309183441604384161791406112801451895
-0.0615156888961792-0.13150268793106080.275541161302268861791406112832442968
0.1531428098678589-0.089449822902679440.251078164101172841791406112864901214
-0.096719086170196530.390138030052185060.32021361327919631791406112891585534
-0.09416937828063965-0.12121099233627320.298544143949248831791406112921525230
-0.24818992614746094-0.127094507217407230.321485138441052861791406112951553437
0.074838459491729740.066436469554901120.32279918746026821791406112981541029
-0.08247017860412598-0.096275627613067630.294529480432350441791406113011583639
-0.06860834360122680.066713511943817140.313853452533898851791406113041593457
-0.072876572608947750.18990117311477660.30597886553808551791406113072462614
0.0068187713623046875-0.012688457965850830.282561497488638571791406113104945494
-0.0133287310600280760.0078876614570617680.352237900444769941791406113131747475
0.029553890228271484-0.056848287582397460.2808636783984231791406113161768331
0.063010931015014650.0317862033843994140.276714921597194961791406113191693161
-0.044960439205169680.226365745067596440.31363828959251581791406113220642016
0.10328531265258789-0.074752509593963620.30423666421787021791406113250636050
-0.12138509750366211-0.046293497085571290.313444473405860741791406113281653623
0.0091013908386230470.058367967605590820.303432490552491551791406113312869631
-0.05828958749771118-0.091199159622192380.285768817514640341791406113344841539
0.064211428165435790.140051305294036870.331851299591277241791406113371713114
-0.213551223278045650.023404002189636230.291119381287871351791406113400642946
0.1333577036857605-0.157176136970520020.28230343756619241791406113431664943
-0.147379875183105470.25655984878540040.298122189525643341791406113461666574
0.13265663385391235-0.073592782020568850.305021852565880771791406113491849483
-0.2121405005455017-0.16464090347290040.30309066537352191791406113521778491
0.111162543296813960.261606514453887940.277774399446188541791406113552979925
-0.13353395462036133-0.066561877727508540.27413677262542291791406113584731723
-0.070279657840728760.0233197212219238280.33898583343841371791406113611792434
-0.157315015792846680.14520406723022460.314287681039831791406113641743004
0.29971909523010254-0.150071263313293460.317192288945531251791406113671771999
-0.008942544460296630.094107449054718020.30917947411233341791406113701734325
-0.0232592821121215820.0294029712677001950.280314711100365541791406113731776962
-0.14793634414672852-0.181196570396423340.28465865342920951791406113761774050
-0.20832580327987670.21928548812866210.29677220578507771791406113792740115
0.16665470600128174-0.031392097473144530.28144141652335051791406113824656287
0.14706915616989136-0.188054025173187260.32628541444810371791406113851884290
0.0064064264297485350.154930651187896730.31725934301087321791406113881823722
-0.32771694660186770.083062469959259030.28445195025509631791406113911844268
0.14743131399154663-0.048432469367980960.27419235004588771791406113941857872
-0.297617435455322270.0881764292716980.29496675945619291791406113971855809
0.15386343002319336-0.115393698215484620.28602087311524211791406114001876755
-0.0717434287071228-0.072793722152709960.3013652645998451791406114031820657
0.046196520328521730.21646600961685180.26487914304830331791406114065023796
0.00171077251434326170.06444925069808960.31161916612977161791406114091929192
-0.08757013082504272-0.0312383174896240230.306904146653936671791406114120896292
-0.034996628761291504-0.120489358901977540.300918784870338741791406114152057898
0.12252473831176758-0.0564118027687072750.31897874064582921791406114181948732
-0.147885680198669430.180441796779632570.30980467739812531791406114211971933
0.11221164464950562-0.056830585002899170.291015791573479341791406114241971652
0.0055676102638244630.0029043555259704590.28219122894973191791406114272701942
0.0019346475601196290.186632871627807620.30638333324305421791406114303635127
0.07360869646072388-0.0302703976631164550.334854665850081561791406114331984778
0.022472620010375977-0.099170148372650150.305560442648126761791406114361970557
-0.085748910903930660.035348832607269290.30020070008721151791406114391978265
0.043198168277740480.0171677470207214360.290702059368959651791406114422037390
0.0293235778808593750.035319805145263670.294098325773924141791406114452043878
-0.21053677797317505-0.075133502483367920.31247435097609591791406114482100339
0.429198622703552250.091994225978851320.27951091258829051791406114513105476
-0.205252885818481450.138415336608886720.263207134672015841791406114544860461
0.013714313507080078-0.0355030894279480.300791106661695451791406114572130835
-0.020863652229309082-0.00073999166488647460.28116611956383721791406114602101747
0.040135681629180910.220262765884399410.305234152921850351791406114632085282
-0.2041778564453125-0.16608464717864990.29825626894374511791406114662091568
0.3523139953613281-0.13209074735641480.30145392141318261791406114692097078
-0.0119645595550537110.249746620655059810.319804053320102531791406114722115417
0.073142468929290770.054886519908905030.28531019538744091791406114752718050
-0.28111201524734497-0.122952640056610110.277562465211527941791406114784688950
-0.0377877950668334960.0047211050987243650.3287559121045961791406114812219744
0.07958352565765381-0.089286744594573970.28586255645949011791406114842184068
-0.11488896608352661-0.00030440092086791990.293343873037374141791406114872204090
0.107462406158447270.06801325082778930.29324612718633641791406114902196125
0.060782730579376220.036250054836273190.29647746059731551791406114932203427
-0.108661890029907230.09862893819808960.32034300664311991791406114962254009
0.02600198984146118-0.0345304608345031740.312216421016618231791406114992951686
0.01979351043701172-0.22424584627151490.30906254766835171791406115025048273
0.10425943136215210.225475311279296880.33519039416933461791406115052348540
-0.07459491491317749-0.11648607254028320.272788411621838641791406115082271338
0.04003465175628662-0.045857489109039310.274695946746212841791406115112288972
0.10012477636337280.250867486000061040.30012576330812011791406115142392279
-0.18266981840133667-0.073294639587402340.30464891758349111791406115172347449
0.00822591781616211-0.0407875776290893550.29815819444433431791406115202363552
-0.088761389255523680.038869321346282960.293543686549464831791406115232962197
0.1610735058784485-0.090956509113311770.27361162599800761791406115264947915
-0.037926852703094480.34043878316879270.33832539426152831791406115292551337
-0.02820485830307007-0.1676500439643860.335710695644266141791406115332306966
0.0201568603515625-0.10390096902847290.308612454008595771791406115362356533
0.05370008945465088-0.012636482715606690.283804628467520141791406115392975206
-0.170633673667907710.027890205383300780.261614143356315051791406115424700696
0.10930913686752320.255052268505096440.31159240938242151791406115452534263
-0.31965595483779910.018905520439147950.295795213755521791406115482448041
0.44783538579940796-0.30009585618972780.30527131599478461791406115512440965
-0.212407827377319340.031410634517669680.327653414000887651791406115542439708
0.085455477237701420.0038760304450988770.3060835220236281791406115572445132
-0.2790715694427490.0328607559204101560.26417437487126591791406115602813635
0.074315369129180910.13837176561355590.28051433305395531791406115632762343
-0.01796334981918335-0.0035180449485778810.27265127914973781791406115665400983
0.07569289207458496-0.058703780174255370.33970461452371471791406115692506905
-0.151096105575561520.0060507655143737790.308682832464081851791406115722536409
0.2259799838066101-0.0189943909645080570.28435191192338681791406115752473743
0.0133234262466430660.100378632545471190.28444193684097881791406115782512375
-0.108985126018524170.0180460810661315920.30679133596819221791406115812499869
0.051590919494628906-0.0330454111099243160.315267110794063441791406115842543774
0.00239646434783935550.102615237236022950.31635638047027121791406115872955843
-0.07448959350585938-0.0248875021934509280.282744770379163231791406115904796913
-0.04809677600860596-0.0536612272262573240.30436465811939951791406115932571565
-0.070281565189361570.197902739048004150.297154836831619641791406115962563688
-0.05755537748336792-0.072206974029541020.299185514066681531791406115992568762
0.07446187734603882-0.10532778501510620.308730512244893061791406116021673149
0.134676337242126460.137385904788970950.30204505677669411791406116051674588
0.04638206958770752-0.0273988842964172360.277522826976200951791406116082731423
0.034014284610748290.12943500280380250.278869224536828661791406116113715436
-0.183356821537017820.152629017829895020.30516453974900341791406116144737526
0.048699378967285156-0.101598381996154790.33311146160723531791406116172739847
0.354832828044891360.138075649738311770.318318346524507131791406116211706528
-0.18385565280914307-0.08237928152084350.285428155943665051791406116242709182
0.018755555152893066-0.090658903121948240.275332408261450331791406116272791460
-0.232121169567108150.26839631795883180.271926530275240661791406116305139309
0.05229395627975464-0.107529461383819580.314984672631614841791406116332770357
-0.07264083623886108-0.12848216295242310.30509016441379461791406116362769038
-0.010188221931457520.107450008392333980.320665514713766751791406116392773449
0.0167422294616699220.0165774226188659670.30313931486793321791406116422894048
0.048728048801422120.066346228122711180.30592851270286451791406116452828176
-0.166911184787750240.043469607830047610.297888178148827071791406116482816815
0.20343685150146484-0.091291487216949460.29303787124755951791406116512810940
0.060778915882110596-0.00257211923599243160.29151979214187751791406116544753324
-0.03917163610458374-0.081373095512390140.327440537098639241791406116572883705
0.04983210563659668-0.052793443202972410.298669399332212041791406116602845816
-0.11643499135971070.32424849271774290.290573762311053861791406116632840396
-0.006170392036437988-0.128859639167785640.289338825726361791406116662849927
-0.05510896444320679-0.173638582229614260.31025582396007421791406116692864841
0.095042109489440920.26447111368179320.2991136333310881791406116722892320
-0.07888787984848022-0.144859135150909420.27006908860484241791406116753287454
0.11133682727813721-0.0488790273666381840.26081072217478971791406116784984611
-0.073524236679077150.247438549995422360.315436909882188641791406116812951961
0.1521340012550354-0.0283557772636413570.309497846237710431791406116842900729
0.102843046188354490.142505288124084470.31154855233104741791406116872893449
-0.030154347419738770.0100047588348388670.304747702049528951791406116902898728
0.019391179084777832-0.220896065235137940.299023475655104731791406116932946395
-0.101325750350952150.243635833263397220.29457418191235771791406116962929681
-0.12220376729965210.057260572910308840.298392420755101861791406116992974926
0.05628484487533569-0.097726762294769290.29765465608058231791406117024777494
-0.08338975906372070.110502600669860840.324481295613931741791406117054987755
0.3223409056663513-0.110964298248291020.33716582857459531791406117083064673
-0.0673520565032959-0.0623183846473693850.30932288318925941791406117112979567
-0.114255130290985110.161357522010803220.29898033099281851791406117143127649
-0.030820190906524658-0.037024021148681640.28959018132874711791406117173053608
-0.1263815164566040.0256460905075073240.317684829218336631791406117202987229
-0.013536632061004639-0.0504034757614135740.309543284149112641791406117233104598
0.0984908938407898-0.052788913249969480.269465489305418361791406117265172831
0.078871548175811770.206701457500457760.296936508590665841791406117294073060
0.1020321249961853-0.068162798881530760.26890427111338421791406117333320209
-0.073329091072082520.115177750587463380.288134102759894651791406117363250657
-0.05046361684799194-0.0266066193580627440.304147449239509871791406117393200901
-0.08260220289230347-0.105539619922637940.29055552111620491791406117423747467
0.139097034931182860.111086964607238770.29177812012265521791406117454199709
-0.0513328313827514650.075033426284790040.30110842140947351791406117492084029
0.02105259895324707-0.0095842480659484860.291679184038517171791406117522098764
-0.3159219026565552-0.0211308002471923830.278885207983092631791406117553130021
0.16874223947525024-0.113228082656860350.26623035744815551791406117585204160
-0.0318458080291748050.0040675401687622070.307529199354313941791406117615761005
-0.0205602645874023440.030040144920349120.328165753765276741791406117643177902
0.12773245573043823-0.072726190090179440.28272078234239271791406117673153875
-0.196624577045440670.247565507888793950.29829517359934841791406117703175814
0.19287091493606567-0.122639179229736330.307231485727985031791406117733171522
-0.04998356103897095-0.220464110374450680.30063448219970021791406117763212852
0.233234405517578120.19785517454147340.29897012491146691791406117793283257
-0.15567684173583984-0.087456703186035160.27305723900684381791406117824849395
-0.0102545022964477540.0049390196800231930.26329708222000281791406117855723749
-0.04082912206649780.180656433105468750.301838107268683041791406117883253646
0.02354419231414795-0.225335776805877690.276099372751360151791406117913332256
-0.14510595798492432-0.00137776136398315430.31361578287016371791406117943264256
0.037659764289855960.31025356054306030.31386488039116291791406117973306105
-0.12237650156021118-0.180040538311004640.281991763969397741791406118003325295
-0.04645967483520508-0.073664963245391850.30213259240467641791406118033317638
-0.113482356071472170.078088462352752690.3017146081351361791406118064764474
-0.026146352291107178-0.178125977516174320.293441208290974031791406118096372040
0.0294499397277832030.1270781159400940.358257336933155041791406118123331185
0.156044423580169680.178203880786895750.28731842896543671791406118153402722
-0.13985705375671387-0.097078979015350340.27036902967719151791406118183369798
0.0362437367439270.0153149366378784180.286373336181845741791406118213372875
-0.19244635105133057-0.146038532257080080.2912371578888351791406118243407058
0.1766808032989502-0.0154893994331359860.305848908175848871791406118273419214
0.0505660176277160640.31187438964843750.281302616784398941791406118304800457
0.1145976185798645-0.08934068679809570.27420582522375551791406118336038224
-0.19987517595291138-0.0155335068702697750.34286780485799961791406118363446041
-0.138616740703582760.219546437263488770.299802487629630961791406118393439688
-0.2105926275253296-0.183066904544830320.24556136349383651791406118416427881
-0.006876170635223389-0.090510189533233640.30658488590744841791406118453507474
0.239475488662719730.173673033714294430.28877876598529721791406118482622065
-0.19860363006591797-0.0139022469520568850.273473307836905161791406118513515211
0.178836524486541750.13130503892898560.27864763358063561791406118545248530
-0.32305783033370970.023650586605072020.276156695531576571791406118576480784
0.2029598355293274-0.165461540222167970.32847531865969121791406118603498347
-0.037848234176635740.172723352909088130.31371407705937541791406118633539672
-0.08438235521316528-0.133609712123870850.30114525718175931791406118663506449
-0.169528722763061520.047483325004577640.30074465543833011791406118693600365
0.062916696071624760.146405458450317380.31741882110520051791406118723508996
-0.04929065704345703-0.202782392501831050.314315548373188541791406118753718068
0.1619279980659485-0.0185593962669372560.31178229408149531791406118784845562
-0.000327825546264648440.192559778690338130.28296944295220951791406118816548224
-0.033364176750183105-0.093188762664794920.309271808426409331791406118843589419
-0.14396715164184570.070281207561492920.30680945164403121791406118873663248
-0.07818728685379028-0.0253849625587463380.31949548917134721791406118903676234
0.16821426153182983-0.099815785884857180.32143270010668541791406118932630796
0.00303047895431518550.086180984973907470.311081489332756761791406118962616976
0.120132029056549070.072323977947235110.27459408394210981791406118992646505
-0.2001117467880249-0.069927215576171880.250334628962463171791406119025309623
-0.0146670937538146970.075838983058929440.283591494071872341791406119057035372
-0.2542727589607239-0.0311360359191894530.33310218776850141791406119083646908
0.13670432567596436-0.065155088901519780.294272292173840541791406119113698213
0.086757242679595950.064337611198425290.29758113585881841791406119143701980
0.138802707195281980.0056939721107482910.28871562069569861791406119173720947
-0.071519196033477780.115044116973876950.286345749338129951791406119204398163
-0.226197659969329830.116288363933563230.30048743963720421791406119234448404
0.07596355676651001-0.101270794868469240.297203046040792951791406119264865708
0.08147925138473511-0.0236546993255615230.292351992356384541791406119297027235
-0.11254727840423584-0.050143480300903320.32221818827436561791406119324437812
-0.04676389694213867-0.047398746013641360.279668920491233151791406119354494605
-0.0368779897689819340.212715208530426030.31046228076597881791406119384448132
-0.083869218826293950.047872245311737060.315017552438999761791406119414506404
0.06723886728286743-0.130151450634002690.303619930346182451791406119444562640
-0.03864830732345581-0.0105692744255065920.305161753206862231791406119474589301
0.12707346677780150.016004920005798340.28280430632492991791406119504877304
0.0035217404365539550.177861630916595460.27149571578725011791406119536349770
0.0371055603027343750.074424207210540770.320525016950685361791406119564387150
-0.05587923526763916-0.189826071262359620.30294217103343821791406119594545384
0.108880460262298580.074724733829498290.31140949751107711791406119624414249
0.00016510486602783203-0.0042218565940856930.28927114405974621791406119654470785
0.04024374485015869-0.0505608320236206050.27290642951728171791406119684470903
-0.195674300193786620.165000200271606450.309587769783120471791406119713910237
0.016173541545867920.03131830692291260.295248765106369441791406119744944038
-0.08177822828292847-0.0129202604293823240.280128711950943351791406119777559179
0.074049830436706540.0324928760528564450.3514462787543581791406119804464961
-0.06354367733001709-0.00114285945892333980.29435933336874861791406119834507285
0.0415455698966980.048925399780273440.301136351469187051791406119864456123
0.00583565235137939450.024331927299499510.307914612395099151791406119894559689
0.038452327251434326-0.091209888458251950.309800202059172751791406119924497695
0.0425965189933776860.094248473644256590.31511043278327311791406119954574044
-0.008121728897094727-0.0573121905326843260.291024435785562251791406119984905963
0.08111733198165894-0.051260054111480710.276646014240066461791406120017182564
-0.035451889038085940.33022689819335940.33514107733529251791406120044534373
-0.06309807300567627-0.105445146560668950.285845782296547831791406120074518437
-0.11679357290267944-0.26075166463851930.28720729580542911791406120104534681
0.187634587287902830.118955612182617190.29693462289168731791406120134577344
0.0241770744323730470.012282669544219970.292977817991406261791406120164494224
-0.0192114114761352540.0239582061767578120.282587922081869341791406120194590817
-0.13240635395050050.21411496400833130.275960941404591431791406120225331883
-0.09146350622177124-0.117715954780578610.268584618517496541791406120257509981
-0.17747747898101807-0.049665033817291260.32233967233442431791406120284530472
0.014162480831146240.0159937739372253420.29544179248038351791406120314548682
0.05136936902999878-0.070794880390167240.28414663692635531791406120344556457
-0.059549272060394290.184364259243011470.28465065271759051791406120374135060
-0.0400527119636535640.021687924861907960.28765855234817681791406120404116442
-0.026260793209075928-0.121832787990570070.30894694207893681791406120434152554
-0.128823518753051760.168024778366088870.32254692939829411791406120465006414
0.07792377471923828-0.038780748844146730.29228207936766091791406120497215212
0.009399116039276123-0.151634991168975830.33323458183011271791406120524196941
0.046105325222015380.150688827037811280.316354247957619461791406120554154058
-0.188945293426513670.0276910066604614260.29655569043686811791406120584134435
-0.14282113313674927-0.0112883448600769040.30187033189834891791406120614173521
-0.0116045475006103520.0143911242485046390.30859178200621811791406120644172893
0.09894341230392456-0.049053013324737550.285350730677944361791406120674246689
0.0131218433380126950.114706516265869140.28919835241047381791406120705247187
-0.40352272987365720.050052821636199950.268117798852105071791406120737792673
0.28708064556121826-0.050695776939392090.33561184698721771791406120764267058
-0.43888777494430540.120618224143981930.3186268397870271791406120794262440
0.2234911322593689-0.059907793998718260.31402447090507091791406120824204942
-0.007233858108520508-0.070627868175506590.321781028096406631791406120853260895
-0.0067254900932312010.256036043167114260.28641915597451781791406120884227748
-0.124772906303405760.045782923698425290.27202915167310671791406120914265547
-0.08997493982315063-0.073593437671661380.28730684647834161791406120943968619
-0.14293861389160156-0.054421782493591310.274673694974011561791406120977305477
0.06633049249649048-0.134671092033386230.335509596165166241791406121004361023
-0.029417157173156740.119453430175781250.302063450673127451791406121034360743
0.091261684894561770.196200132369995120.30384133594485691791406121064341152
0.07364797592163086-0.0430664420127868650.30076825942171481791406121094343763
-0.111244678497314450.024591624736785890.312237403168097671791406121124338183
-0.10028332471847534-0.181314766407012940.31791175084977861791406121154450631
0.06289517879486084-0.072228848934173580.270420830179914861791406121186164361
0.0194382071495056150.197051703929901120.272508429031906531791406121217224300
0.075477182865142820.0238608121871948240.30021731334486961791406121244470767
-0.004492580890655518-0.085141420364379880.28292641878765791791406121274431566
-0.137792527675628660.182204544544219970.30560582392925311791406121304483569
0.09028446674346924-0.100886166095733640.30218330126011741791406121334452569
0.007083714008331299-0.0428053736686706540.29773014453264581791406121364493668
-0.058662891387939450.184547722339630130.301141162609387451791406121394530839
0.005497753620147705-0.0160591602325439450.27579163975318131791406121424971851
-0.136849701404571530.06716942787170410.283581278320504841791406121457189112
-0.107625126838684080.062520146369934080.338754566313038131791406121484600454
0.38377511501312256-0.131772756576538090.287589412873416661791406121514736092
-0.20805966854095460.128812670707702640.30947681923920591791406121543623314
0.156420469284057620.044160723686218260.2873216485927251791406121574691745
-0.13506883382797240.076304495334625240.31731996670609391791406121604558672
0.016537308692932130.137557327747344970.315572974949991261791406121634556243
-0.15307098627090454-0.064008533954620360.30351477913864281791406121665132167
0.07757139205932617-0.0299687385559082030.28998809407352091791406121697592895
-0.235216021537780760.00626349449157714840.32475483942399981791406121723624807
0.012717127799987793-0.0427930951118469240.267316842503878941791406121754590861
-0.10652631521224976-0.056125164031982420.25501966236319051791406121777588610
-0.03126889467239380.07504200935363770.354463698862242771791406121803629469
0.16429120302200317-0.13773524761199950.30388946981357911791406121833639895
0.0422904491424560550.26620221138000490.281225425949114041791406121874679633
-0.104516625404357910.065726220607757570.277329892545401141791406121904985559
-0.15712517499923706-0.145142912864685060.260786921442647261791406121937565060
-0.024922370910644530.151146352291107180.32762250667610231791406121964736653
0.23025071620941162-0.165880620479583740.30398093176047381791406121994736346
-0.08752322196960449-0.067732691764831540.290825465572154161791406122024702603
0.050629973411560060.23046898841857910.27984230592361291791406122054721960
-0.043494105339050290.09909540414810180.282412803197374551791406122084711908
-0.21701234579086304-0.0065867304801940920.305663183294525241791406122114706642
-0.14076155424118042-0.085030138492584230.301092160368838461791406122145420360
0.3243560194969177-0.0622364878654480.28506130900126261791406122177166425
-0.0243167281150817870.175120472908020020.33915866500215061791406122204814073
-0.19510608911514282-0.0232962369918823240.305626510560938041791406122234830324
0.199376285076141360.056662082672119140.290585712746435351791406122264768971
-0.268577337265014650.22585576772689820.306947409988245661791406122294808557
0.17120599746704102-0.145194768905639650.2983628615130341791406122324784717
-0.22267675399780273-0.232586205005645750.310026191749955551791406122354820634
0.21735125780105590.169632852077484130.307127863512681951791406122385678486
0.0600028038024902340.0195102691650390620.275590291833885951791406122417107560
-0.1099538803100586-0.0358558893203735350.30927252374455911791406122444872903
-0.097120940685272220.049691438674926760.314239024887527031791406122474803630
0.036956906318664550.0290640592575073240.31360994349320811791406122504828889
-0.060403823852539060.043200075626373290.30997279611054161791406122534853425
0.03363299369812012-0.0387046337127685550.2888774174133841791406122564859196
0.07369911670684814-0.045363843441009520.281148181970330261791406122594886873
-0.190990984439849850.19849938154220580.3053595454699321791406122625243200
0.061520159244537354-0.053262054920196530.298499159221906061791406122657939020
0.08921998739242554-0.132200002670288090.35645193524909441791406122684930961
0.158705830574035640.173852920532226560.315334345015741871791406122714866460
-0.22733157873153687-0.00033110380172729490.293348012075436371791406122744902342
-0.15637665987014770.0006411671638488770.286605100756539551791406122774936902
-0.238042533397674560.079141438007354740.303909664766874371791406122804951000
0.2722576856613159-0.130895137786865230.30213843231971411791406122835062069
0.06810820102691650.047627627849578860.30157541965254011791406122865075085
0.160272061824798580.124645471572875980.27608604385312631791406122897239742
0.027902662754058838-0.0400228500366210940.30118122423797061791406122925096641
-0.244943618774414060.12516927719116210.299140541973391851791406122954996671
-0.0206547379493713380.0062616467475891110.309331359908793241791406122985015047
-0.04131269454956055-0.111172199249267580.311553774765235771791406123014956844
0.155909895896911620.080719113349914550.3142588152028481791406123044997092
0.08235406875610352-0.056466698646545410.28465945277417481791406123075033317
0.10080283880233765-0.032468616962432860.27104908560411841791406123105548753
-0.228205740451812740.248724699020385740.27216450125911951791406123137182143
0.005601108074188232-0.060515701770782470.31028090129202431791406123165131287
-0.13540363311767578-0.090161204338073730.30431281479815961791406123195121546
0.132172942161560060.119852244853973390.31420533226893941791406123225131558
-0.0011962056159973145-0.076832473278045650.3099994921839721791406123255343141
0.040851116180419920.076567173004150390.32355278745420961791406123285128601
-0.124486505985260010.22825330495834350.310407574439224341791406123315161848
0.09717196226119995-0.079923212528228760.32390899363842121791406123345193933
-0.025812566280364990.0278503298759460450.30204346306282031791406123377224288
-0.030490875244140625-0.125503420829772950.31030094074149691791406123405229259
-0.17153185606002808-0.154941260814666750.27484221500743071791406123435148108
0.053935408592224120.30700463056564330.288843042812634231791406123465173104
-0.104856491088867190.016445219516754150.268687260589815241791406123487370672
0.06823736429214478-0.21596515178680420.324376025191937261791406123525297157
0.0446595549583435060.202570974826812740.30320260739723821791406123555253962
0.15486747026443481-0.078224956989288330.2894577394478161791406123585554064
-0.188012421131134030.205996870994567870.26210498588695251791406123617900268
0.15282171964645386-0.045269072055816650.32680505565097631791406123644453739
0.03357219696044922-0.033899247646331790.28049564452095331791406123675466067
-0.094779789447784420.166732132434844970.30070504262548061791406123705209103
0.0773535966873169-0.12644326686859130.28656307894531021791406123735252952
-0.12733447551727295-0.077088475227355960.28400019545737841791406123765264011
-0.083608329296112060.311892628669738770.2953573418283271791406123795292409
-0.01966911554336548-0.047709345817565920.286585219140399361791406123825333430
-0.08594053983688354-0.127532422542572020.28886384859619351791406123857345829
0.17409914731979370.073850631713867190.35570750618593311791406123885412762
-0.0021113753318786620.0222971439361572270.30386873198975091791406123915267747
-0.067373871803283690.063033044338226320.28721553246636561791406123945313857
-0.08310717344284058-0.0065080523490905760.28671469901418621791406123975337170
-0.11478370428085327-0.059812128543853760.28436938849153681791406124005328353
0.052467644214630130.114108741283416750.301619745504976171791406124035368586
0.01052248477935791-0.028105258941650390.2999216694900821791406124065732014
0.18067008256912231-0.0097723007202148440.27883629538600371791406124097499310
-0.14681136608123780.219083309173583980.293366879832074771791406124127968517
-0.034286558628082275-0.099744439125061040.31481388540611241791406124155481513
-0.24056845903396606-0.098416328430175780.292792880209436171791406124185428785
0.0087555050849914550.110437154769897460.29827648877826261791406124215396596
-0.005125820636749268-0.045485019683837890.301074026273160931791406124244413444
0.195019245147705080.0088530182838439940.305567225881996751791406124274434397
-0.17323887348175050.159008741378784180.30885868935789071791406124304462911
0.10445535182952881-0.0518362522125244140.281206275266342951791406124336218464
-0.27031660079956055-0.01005941629409790.28994458991531321791406124368308247
-0.04341936111450195-0.080421209335327150.36090421814285351791406124395558538
0.10162192583084106-0.064127683639526370.31740576218212341791406124425517987
-0.078372716903686520.231459498405456540.30809379785490071791406124455517945
0.05512106418609619-0.169083237648010250.313189949374799551791406124485540386
-0.08924865722656250.010154724121093750.30396604519742241791406124515527154
0.201437294483184810.146240830421447750.307704040320327051791406124545581689
-0.09223037958145142-0.157972693443298340.26715450779735061791406124577784457
0.1221933364868164-0.108590126037597660.28046771341901691791406124608324997
-0.0092201232910156250.236207365989685060.316416654554409261791406124635649399
-0.0513460636138916-0.0105560421943664550.27559772963234471791406124665569228
-0.07309365272521973-0.0183703899383544920.30322647719778261791406124694625586
-0.0472283363342285160.058736681938171390.302958719875881631791406124724623568
-0.05661642551422119-0.119933903217315670.27811531728898811791406124755655466
-0.056276082992553710.15049427747726440.289541496847460061791406124785682461
-0.142696201801300050.094342112541198730.259036886678944371791406124817270941
0.034262120723724365-0.181754052639007570.267918355432069431791406124848407312
