acc_x, acc_y, angular_z, stamp, 
-0.00713372230529785160.02309948205947876-5.896754386987435e-101791406013007358441
-0.00160455703735351560.01754903793334961-8.687182551219235e-101791406013037438537
-0.0032016634941101074-0.0168637037277221681.93349275187563e-061791406013068253048
0.0060737133026123050.00977236032485962-7.828396932281449e-101791406013099272938
0.006362020969390869-0.0066727399826049805-8.375282356458289e-101791406013127049328
0.0172414779663085940.005590021610260011.9888777977186426e-061791406013157008556
0.022582113742828370.0035148859024047851.9795474689040456e-061791406013187111762
0.0117818713188171390.0104888081550598141.9816828302355507e-061791406013217184393
-0.00812155008316040.0101810097694396971.9972876636869e-061791406013247024174
-0.0009816288948059082-0.015195131301879883-7.496570320865177e-111791406013277086920
0.018645346164703370.0222712755203247071.9675847958252994e-061791406013307380607
0.002320885658264160.0291173458099365231.8641796408720244e-061791406013339355871
0.0183539390563964840.0088419914245605471.7193046846603729e-101791406013367107547
0.005417346954345703-0.0149245858192443851.8984036596483123e-101791406013397077405
-0.012707531452178955-0.0131404399871826171.1902128773889913e-101791406013427093160
0.017753899097442627-0.011361718177795416.719250546497728e-111791406013457162553
-0.023648560047149658-0.0095418691635131843.995510427894877e-111791406013487109691
-0.030812919139862060.017401993274688722.8774882168037798e-111791406013517208493
0.017679154872894287-0.0058197379112243653.5680901378175037e-111791406013547799153
-0.0236174464225769040.00152325630187988282.3134735233443964e-111791406013580056641
0.0195446014404296880.01597231626510623.919313305907441e-111791406013607192514
0.010349452495574951-0.0055810213088989267.306013411856364e-121791406013637180985
-0.0095059871673583980.0052446722984313965-1.7151896908695222e-111791406013667188872
-0.0022145509719848633-0.005509734153747559-1.0279385238577564e-111791406013697174358
0.00866621732711792-0.0216541886329650881.0190253121034964e-111791406013727259939
0.01948159933090210.00349539518356323241.3674016055990991e-111791406013757245888
-0.0040413737297058105-0.0145297050476074221.0308885730725822e-121791406013787655965
-0.0148844718933105470.017774760723114014-1.4689222226028912e-111791406013819519350
-0.013164401054382324-0.002111494541168213-2.7506925077020512e-111791406013847730689
0.00121992826461792-0.012992918491363525-2.929365959533006e-111791406013877226864
0.0353567600250244140.004839897155761719-2.8696397538288904e-111791406013907251390
0.028080582618713380.020779013633728027-4.8229513314446436e-111791406013937452026
0.01888340711593628-0.011632263660430908-1.995159173321745e-061791406013967328089
-0.0011188983917236328-0.0007498860359191895-1.4090277435014407e-101791406013997379587
-0.008563160896301270.0010153651237487793-1.7012138215942212e-101791406014027770330
-0.0321497917175293-0.004529714584350586-2.2496471435250975e-101791406014059312320
-0.005468428134918213-0.013392746448516846-3.0223049094444345e-101791406014087456689
-0.029182732105255127-0.016749441623687744-2.684645972995862e-101791406014117298281
-0.0148420929908752440.017597496509552002-1.7080341440107097e-101791406014147295189
0.00309866666793823240.005072414875030518-1.2716924721779937e-101791406014177300507
-0.0096246600151062010.026666641235351562-1.0038420986978738e-101791406014207426027
0.01184225082397461-0.03447943925857544-1.4351628107382965e-101791406014237431456
-0.03671973943710327-0.0020122528076171875-1.1481640212660082e-101791406014267401745
-0.0114055871963500980.0034256577491760254-3.930590692912172e-111791406014299995139
-0.013153672218322754-0.005484163761138916-3.4493444445761997e-111791406014327483668
0.0049235224723815920.00175809860229492193.05156068037842e-121791406014357468148
-0.027244865894317627-0.026814341545104984.5341351181417795e-111791406014387426999
-0.00179338455200195310.0146763324737548833.874089892657491e-111791406014417496878
0.014585971832275390.0200709700584411623.460473124668072e-111791406014447420564
0.020209550857543945-0.0086500048637390142.3266106504443116e-111791406014477459847
0.02385997772216797-0.02840822935104374.05575954326147e-121791406014507483836
-0.013850569725036621-0.0156595706939697279.31537688080719e-121791406014539782652
0.0203648805618286130.0167380571365356455.942085389727779e-121791406014567528229
-0.01736164093017578-0.0084171891212463383.745542210599084e-121791406014597469435
0.025662004947662354-0.0156741142272949225.656841123725531e-141791406014627502882
-0.001508474349975586-0.0174010396003723142.03426373248728e-111791406014657545515
-0.00693076848983764650.00078386068344116213.890098435946014e-111791406014687534315
0.0254404544830322270.0116205811500549325.241527684327596e-111791406014717505257
-0.012253701686859130.0043970346450805664.3942408618575355e-111791406014746631682
-0.0049214959144592285-0.0135201215744018551.971632853078938e-111791406014779372758
-0.04600262641906738-0.004271388053894043-8.776942704965202e-121791406014809647260
0.0082252025604248050.017352163791656494-9.715700787052869e-111791406014836644634
0.02621936798095703-0.002472400665283203-1.0941038453604984e-101791406014866645462
0.018844902515411377-0.009794235229492188-6.389873483460258e-111791406014897682811
0.014945805072784424-0.024101316928863525-1.0822620490772757e-111791406014927722801
-0.0139557719230651860.0083242058753967293.429523028134463e-111791406014957807823
0.0075245499610900880.0046321153640747073.623219347028315e-111791406014987800366
0.014626741409301758-0.0043590068817138674.518534972425862e-111791406015018378261
-0.0070201158523559570.0028492808341979986.336373619932242e-111791406015049699162
-0.016034543514251710.044116914272308355.93829410685029e-111791406015077998950
0.0270501375198364260.0222534537315368653.4677281493469585e-111791406015107814843
0.0069794654846191410.0057942271232604986.7039478638645725e-121791406015137895384
-0.00224643945693969730.0020143985748291016-4.758361941397773e-111791406015167956016
-0.034766197204589844-0.00517582893371582-6.739125869164655e-111791406015197779108
-0.0221298336982727050.012857973575592041-3.833550297776557e-111791406015227745896
0.03272700309753418-0.003395378589630127-0.00024077787854656131791406015258689858
0.28704476356506350.0290151834487915040.0043349189695802211791406015289737119
1.8027789592742920.23562282323837280.067277441265354931791406015316709938
1.3927191495895386-0.0369820594787597660.087041939543154061791406015346698611
1.5242315530776978-0.306646823883056640.0242815543485900081791406015369815603
0.17792224884033203-0.06460994482040405-0.0259599351926428671791406015407746267
-0.00482887029647827150.812828779220581-0.0269935483892934441791406015436887361
-0.34587836265563965-0.6925940513610840.078858354867804761791406015467819265
0.09719288349151611-0.5662560462951660.138563074735147061791406015499783249
0.115712523460388180.73585987091064450.054527459161942641791406015529799737
-0.28990817070007324-0.101929128170013430.0232425548967069851791406015557874561
0.2559097409248352-0.40021955966949463-0.04447993030468491791406015587823198
-0.1861022710800171-0.056793153285980225-0.08265696559239291791406015617797520
-0.071400940418243410.19942831993103027-0.0299237876950286561791406015647852377
0.51613247394561770.07170289754867554-0.010469278972582721791406015677827053
0.09083783626556396-0.025519371032714844-0.0042013533995533941791406015707890589
-0.13826584815979004-0.051396667957305910.0062693649764461851791406015739378274
0.19592833518981934-0.064189195632934570.0180384082606510131791406015769889037
0.0176495909690856930.059261560440063480.0112726079293943281791406015797897025
0.270974218845367430.07441234588623047-0.0177431993214804341791406015827938697
-0.180195152759552-0.11947476863861084-0.006486369240398191791406015850718069
0.13930773735046387-0.00855875015258789-0.020921743848999351791406015877919074
0.2793041467666626-0.07287049293518066-0.0036941121304781961791406015907931886
-0.312238574028015140.00047618150711059570.00130166427405054631791406015937925515
0.54260611534118650.0321784019470214840.0058963904346573741791406015967959274
-0.38319367170333860.039652049541473390.011418325287969051791406015997971985
0.46641576290130615-0.0360296964645385740.00214997601349711231791406016028002786
-0.46244597434997560.05961763858795166-0.0144056546871318471791406016058603482
0.76589810848236080.06311088800430298-0.021451471399448121791406016090121151
-0.307501792907714840.017997443675994873-0.0249070519119071531791406016118057788
0.1469515562057495-0.12655365467071533-0.0090401782786848681791406016148016838
-0.054852843284606934-0.118857324123382570.0252985087195379061791406016178200794
0.15253919363021850.157246053218841550.0296878100937417771791406016208049906
-0.145726561546325680.00387394428253173830.0003958058286969181791406016238136800
0.6894278526306152-0.06018221378326416-0.0124195883810654041791406016268083047
-0.23774749040603638-0.14159464836120605-0.000117193275177294151791406016299459877
0.306284904479980470.2487494945526123-0.00352065213122306671791406016330900433
-0.047112643718719480.00212669372558593750.013974122105553131791406016368053441
-0.3659195303916931-0.19690012931823730.0477757160518033561791406016398203824
0.305361628532409670.0530129671096801760.0155145008676398271791406016428137149
-0.227036058902740480.24374127388000488-0.0138975351563322071791406016459863136
-0.08767479658126831-0.29081010818481445-0.0124870581311649681791406016490905661
0.07531619071960449-0.25833553075790405-0.014116755521988671791406016528183850
-0.172331273555755620.32307624816894530.0048319337770264261791406016558164263
0.18990081548690796-0.0890578031539917-0.0074127466188751611791406016588199575
0.36468619108200073-0.20641523599624634-0.0315195843225999151791406016619458081
-0.374620616436004640.28101837635040283-0.016066526087615861791406016651235293
0.2613444924354553-0.0054482817649841310.0145386319852977461791406016688195583
-0.004098057746887207-0.17942762374877930.0123419772250186081791406016718305914
-0.43598574399948120.49373728036880493-0.0105080238292072621791406016748306630
0.2405446171760559-0.11279016733169556-0.0056789903605626171791406016779462687
0.12356436252593994-0.3145243525505066-0.0079295377876408681791406016811849952
0.08250343799591064-0.124969184398651120.0303850884056497341791406016848284746
0.298121273517608640.6415163874626160.020760619075158691791406016878296750
-0.2083396315574646-0.2719171643257141-0.0060617414458778451791406016908327209
0.022152304649353027-0.25971317291259766-0.012165439115298591791406016939468851
0.077077627182006840.20785826444625854-1.1885096788021298e-051791406016971680073
-0.128334522247314450.40085470676422120.02888296550608661791406017008427085
-0.31111252307891846-0.1320621371269226-0.0025790150142710771791406017039347087
0.049076974391937256-0.11370855569839478-0.037462909786867461791406017069048951
0.16701769828796387-0.10722357034683228-0.016468326138260781791406017099772331
0.219623565673828120.38586813211441040.0295506160647893321791406017131349506
0.2817084789276123-0.19555717706680298-0.0014721087122360621791406017159279417
0.2648743987083435-0.14824694395065308-0.0117642485684541881791406017189009789
0.230164408683776860.45666921138763430.0204830063027423261791406017219024080
0.44750791788101196-0.151230990886688230.0126471433816532811791406017249006885
0.38897818326950073-0.0224925279617309570.026131120782380591791406017279053861
-0.198285460472106930.0001519918441772461-0.007946889782134361791406017309037470
-0.258524000644683840.15956687927246094-0.0287827634707967071791406017339692457
-0.12569373846054077-0.51960265636444090.0149701008839093091791406017371825385
0.286379992961883540.260911345481872560.025497538055027921791406017399050634
0.12756687402725220.13003355264663696-0.055049103929481211791406017429121402
-0.3611704111099243-0.01603400707244873-0.0415565572962581161791406017452173768
0.01312398910522461-0.35738062858581543-0.0061568912803155231791406017488443255
-0.076201200485229490.0564199686050415040.019686897019362341791406017518569261
0.32334750890731810.11731690168380737-0.0163751890372338361791406017548465540
0.314084887504577640.05298125743865967-0.0268701919006234181791406017579908366
0.49727243185043335-0.089314401149749760.0163019583120610871791406017612080553
0.70748710632324220.233450949192047120.036604846768822951791406017638575589
-0.11274456977844238-0.4037337303161621-0.0155972070616019421791406017668513733
-0.58195054531097410.33874261379241943-0.0040628829571171851791406017691799481
-0.276736915111541750.060454308986663820.0438041382757866151791406017728576380
-0.242305397987365720.34824115037918090.01196077134109031791406017758566897
-0.2229253053665161-0.03844326734542847-0.020191686005603321791406017788574318
-0.3805971145629883-0.553144633769989-0.000120055114972320011791406017819670831
-0.5082969665527344-0.137509107589721680.00334992836770458971791406017851843801
-0.342638671398162840.27760154008865356-0.0471708971360735451791406017878568904
-0.341348707675933840.09542959928512573-0.0306487076878219081791406017909135554
0.21347159147262573-0.425963044166564940.032050758480707161791406017939141625
0.401208460330963130.0426901578903198240.0124934123720000531791406017969151867
-0.093514621257781980.19500207901000977-0.02656553991069631791406017999161900
-0.1258031725883484-0.76411336660385130.0094166384225121791406018028669060
0.70610928535461430.495759844779968260.045240722213529391791406018058606447
0.1679043173789978-0.12313711643218994-0.0163911229661141551791406018091719550
-0.08721697330474854-0.43290084600448610.0032121024893617561791406018128687391
0.109102010726928710.18604785203933716-0.0143872341822367851791406018158693854
-0.32255601882934570.4607506990432739-0.0354657141125948461791406018188700731
0.11944520473480225-0.33820247650146484-0.0037561316589804091791406018219761577
-0.161396920680999760.434286832809448240.0041865018155258861791406018250672435
0.19759088754653930.5069666504859924-0.0079279236184741951791406018278738673
-0.056838929653167725-0.35783290863037110.0346666714536197841791406018308746621
-0.105780541896820070.023007810115814210.0309352237572860271791406018338765328
0.67293924093246460.36407268047332764-0.0155915412404485231791406018368804497
-0.31015968322753906-0.72684520483016970.004851584620073631791406018398768208
0.22580093145370483-0.2990683317184448-0.00299225091052371561791406018428787955
-0.26344615221023560.12066000699996948-0.055994946913703281791406018459973511
0.66365158557891850.08920514583587646-0.062941205190938021791406018490628058
-0.4602276086807251-0.022696077823638916-0.021452881417051721791406018528808791
0.059895396232604980.011766493320465088-0.040179534401561731791406018558798951
-0.07096141576766968-0.9834509491920471-0.007582072434307921791406018588842590
0.39427548646926880.9898663759231567-0.041257370614466831791406018619576859
-0.44911289215087890.2860656976699829-0.039868306421826611791406018652296686
0.7055295705795288-0.11967748403549194-0.0096064130448491951791406018678933332
-0.36882525682449340.21587973833084106-0.045056586203118441791406018707872741
-0.39603388309478760.3088139295578003-0.050511012356772051791406018731819303
-0.010218322277069092-0.9329943656921387-0.027047739886997621791406018767864522
-0.21368181705474854-0.15401875972747803-0.0506426145063001641791406018798889215
-0.36967581510543823-0.07124882936477661-0.053605666537964661791406018827904454
-0.0608788728713989260.3100816011428833-0.0115802330655473821791406018859577759
0.208878636360168461.1186662912368774-0.033427386499030011791406018892204699
-0.130038321018219-1.2355629205703735-0.034932356934271271791406018928941206
-0.2467908263206482-0.6181516647338867-0.0178391083103933421791406018959041458
-0.071342468261718750.7829128503799438-0.063620685939727241791406018989009103
-0.098563373088836670.20234888792037964-0.0362287563126521551791406019019578994
-0.022474646568298340.5414634346961975-0.05283318827992881791406019051721819
-0.39273285865783690.06033545732498169-0.106413805256357261791406019079141455
-0.15679031610488892-0.7045271396636963-0.0484022475847232861791406019109071279
0.0279048085212707520.768272876739502-0.044836329559449941791406019139221112
0.124054372310638430.34304624795913696-0.087334954381550061791406019169131197
-0.39148497581481934-0.14654964208602905-0.0198502391035168331791406019199082440
0.231057703495025630.24805927276611328-0.044632176421411821791406019229131974
-0.20736956596374512-0.5164350271224976-0.07732218088998471791406019259589076
-0.6254308223724365-0.5077791213989258-0.038574514045704381791406019292133482
0.29525315761566160.48537522554397583-0.061811878064571451791406019319190161
0.093999445438385010.0002694129943847656-0.071380105961784141791406019349110632
-0.201728641986846920.17278653383255005-0.039863869611420521791406019371809990
-0.282434523105621340.7211114764213562-0.047168449505533271791406019409165437
0.2749934196472168-0.9481099247932434-0.0504481720132104951791406019439150013
-0.4278593659400940.020182132720947266-0.02461235323064081791406019469406655
0.30461972951889040.7743415832519531-0.058517284485780841791406019498609035
-0.1693761944770813-0.46410810947418213-0.0494595940255252651791406019531904321
-0.11045563220977783-0.03281879425048828-0.0248486282075997161791406019559521066
-0.48294168710708620.18305963277816772-0.071946296136390061791406019589415296
0.5948052406311035-0.21398615837097168-0.071966839130566021791406019619475337
-0.23580646514892578-0.22749781608581543-0.0486168611025379061791406019649467917
-0.106792926788330080.7498423457145691-0.070490216320846661791406019679392036
-0.0394980907440185550.18088072538375854-0.0510719610078466041791406019709462370
-0.4180591106414795-0.2078542709350586-0.0406203853865092641791406019739685143
0.31740856170654297-0.038626134395599365-0.0439899362232336061791406019772167444
0.2651205062866211-0.5994393825531006-0.036206124420569551791406019799525031
-0.15333837270736694-0.603895902633667-0.061812598196882311791406019829474984
-0.21212649345397950.4276675581932068-0.065474412559973441791406019859497306
0.43019294738769530.8341256380081177-0.0302029964372629821791406019889466309
0.233340442180633540.1892581582069397-0.0596577994283271561791406019919572570
-0.037782549858093260.00023508071899414062-0.092224940863574011791406019949478738
-0.248721182346344-0.2375115156173706-0.0249184031423800021791406019980061926
-0.347395658493042-0.4902914762496948-0.0318730483752079561791406020012075554
0.0914270281791687-0.3513038754463196-0.064731586950063081791406020039551880
0.135787546634674070.3311004042625427-0.0127547258532101291791406020069518857
-0.13488191366195680.18880021572113037-0.059843237818427651791406020099541423
-0.04777526855468750.0009794235229492188-0.064626951202277471791406020129501353
0.36408656835556030.6878827214241028-0.03708160955180081791406020159524500
-0.8022835850715637-0.2634720206260681-0.078517089559128161791406020189415654
0.18408918380737305-0.6819908618927002-0.061915412391161481791406020219967823
-0.112649977207183840.12689656019210815-0.0243100948998927551791406020251897148
0.0268782973289489750.009409666061401367-0.053946581844392651791406020279452616
0.1052173376083374-0.07649493217468262-0.055060446462422761791406020309450508
-0.298963904380798340.07572686672210693-0.031179460349350061791406020331806656
-0.1016920804977417-0.310200035572052-0.0498788551384508341791406020359450174
0.56165140867233280.22419780492782593-0.047474032295760861791406020389431996
-0.109561443328857420.052521347999572754-0.0386100939451731791406020419479224
-0.35260772705078125-0.006604611873626709-0.0434392228970269941791406020449506041
0.206344544887542720.23804092407226562-0.041246186713699291791406020479488298
-0.2206973433494568-0.22438031435012817-0.076097118882340541791406020509512781
-0.32293021678924560.2075672745704651-0.0589373452281667861791406020539959544
0.27652043104171753-0.0571860671043396-0.0302927932488877631791406020572153133
-0.5310889482498169-0.163019597530365-0.047159610025862311791406020599579368
-0.12458181381225586-0.15122699737548828-0.050140500066462531791406020629543767
0.6966603994369507-0.36379802227020264-0.040170689669562841791406020659525475
-0.343029856681823730.6158192157745361-0.070389831964228891791406020689550803
-0.158604383468627930.36912691593170166-0.0566518709024682461791406020719576354
0.02387458086013794-0.08517146110534668-0.033367732966657621791406020748617822
-0.15805608034133910.08268231153488159-0.070028781232057011791406020779700692
-0.3189218044281006-0.8304092288017273-0.071125412793522971791406020812270883
0.36440420150756836-0.29297274351119995-0.050300074596308921791406020838631772
0.134476363658905030.38274717330932617-0.0573355624512019851791406020869649949
-0.016586720943450928-0.058102309703826904-0.044989895496571311791406020899594275
0.064550518989562990.46591466665267944-0.027280321432344261791406020928637360
0.0341278910636901860.575234055519104-0.046815904258394821791406020958642737
-0.5508224368095398-0.8873189687728882-0.035326023775336821791406020989666737
0.6103201508522034-0.23156654834747314-0.0314979500037509961791406021019961716
-0.535209059715271-0.06609880924224854-0.037034866116571361791406021051840986
-0.641001284122467-0.5977820158004761-0.05755694563682631791406021081825323
0.34109860658645630.6593985557556152-0.0373027816675601461791406021109786557
